{
  "resourceType" : "Bundle",
  "id" : "LocationUpdateExample-MessageBundle",
  "meta" : {
    "profile" : ["http://hl7.org/fhir/uv/rtls/StructureDefinition/rtlsMessageBundle"]
  },
  "type" : "message",
  "timestamp" : "2023-03-24T10:24:13.1882432-05:00",
  "entry" : [{
    "fullUrl" : "http://example.org/fhir/LocationUpdateExample-MessageHeader",
    "resource" : {
      "resourceType" : "MessageHeader",
      "id" : "LocationUpdateExample-MessageHeader",
      "meta" : {
        "profile" : ["http://hl7.org/fhir/uv/rtls/StructureDefinition/rtlsMessageHeader"]
      },
      "text" : {
        "status" : "generated",
        "div" : "<div xmlns=\"http://www.w3.org/1999/xhtml\"><a name=\"MessageHeader_LocationUpdateExample-MessageHeader\"> </a><p class=\"res-header-id\"><b>Generated Narrative: MessageHeader LocationUpdateExample-MessageHeader</b></p><a name=\"LocationUpdateExample-MessageHeader\"> </a><a name=\"hcLocationUpdateExample-MessageHeader\"> </a><div style=\"display: inline-block; background-color: #d9e0e7; padding: 6px; margin: 4px; border: 1px solid #8da1b4; border-radius: 5px; line-height: 60%\"><p style=\"margin-bottom: 0px\"/><p style=\"margin-bottom: 0px\">Profile: <a href=\"StructureDefinition-rtlsMessageHeader.html\">RTLS Message Header Resource Profile</a></p></div><p><b>event</b>: <a href=\"CodeSystem-rtlsMessageEvents.html#rtlsMessageEvents-location-update\">RTLS Message Events location-update</a>: Location Update</p><h3>Sources</h3><table class=\"grid\"><tr><td style=\"display: none\">-</td><td><b>Endpoint</b></td></tr><tr><td style=\"display: none\">*</td><td>urn:uuid:056df0be-13d1-43ae-9182-40155caf6695</td></tr></table><p><b>focus</b>: <a href=\"Bundle-LocationUpdateExample-MessageBundle.html#http-//example.org/fhir/LocationUpdateExample-MessageBundle2\">Bundle: type = message; timestamp = 2023-03-24 10:24:13-0500</a></p></div>"
      },
      "eventCoding" : {
        "system" : "http://hl7.org/fhir/uv/rtls/CodeSystem/rtlsMessageEvents",
        "code" : "location-update"
      },
      "source" : {
        "endpoint" : "urn:uuid:056df0be-13d1-43ae-9182-40155caf6695"
      },
      "focus" : [{
        "reference" : "http://example.org/fhir/LocationUpdateExample-MessageBundle2"
      }]
    }
  },
  {
    "fullUrl" : "http://example.org/fhir/LocationUpdateExample-MessageBundle2",
    "resource" : {
      "resourceType" : "Bundle",
      "id" : "LocationUpdateExample-MessageBundle2",
      "type" : "message",
      "timestamp" : "2023-03-24T10:24:13.1882432-05:00",
      "entry" : [{
        "fullUrl" : "http://example.org/fhir/LocationUpdateExample-Device",
        "resource" : {
          "resourceType" : "Device",
          "id" : "LocationUpdateExample-Device",
          "identifier" : [{
            "system" : "urn:uuid:324de6ab-268e-4da0-b06c-722f57d91bb0",
            "value" : "12345678"
          }],
          "status" : "active",
          "location" : {
            "reference" : "http://example.org/FHIR/R4/Location"
          }
        }
      },
      {
        "fullUrl" : "http://example.org/FHIR/R4/Location",
        "resource" : {
          "resourceType" : "Location",
          "id" : "LocationUpdateExample-Location",
          "identifier" : [{
            "system" : "http://example.org/HospitalLocations/id",
            "value" : "EMC-317"
          }],
          "name" : "Example Medical Center - Room 317"
        }
      }]
    }
  }]
}