<?xml version="1.0" encoding="UTF-8"?>

<Bundle xmlns="http://hl7.org/fhir">
  <id value="StaffDuressExample-MessageBundle"/>
  <meta>
    <profile value="http://hl7.org/fhir/uv/rtls/StructureDefinition/rtlsMessageBundle"/>
  </meta>
  <type value="message"/>
  <timestamp value="2023-03-24T10:24:13.1882432-05:00"/>
  <entry>
    <fullUrl value="http://example.org/fhir/Device/$auxiliary-function"/>
    <resource>
      <MessageHeader>
        <id value="StaffDuressExample-MessageHeader"/>
        <meta>
          <profile value="http://hl7.org/fhir/uv/rtls/StructureDefinition/rtlsMessageHeader"/>
        </meta>
        <text>
          <status value="generated"/><div xmlns="http://www.w3.org/1999/xhtml"><a name="MessageHeader_StaffDuressExample-MessageHeader"> </a><p class="res-header-id"><b>Generated Narrative: MessageHeader StaffDuressExample-MessageHeader</b></p><a name="StaffDuressExample-MessageHeader"> </a><a name="hcStaffDuressExample-MessageHeader"> </a><a name="StaffDuressExample-MessageHeader-en-US"> </a><div style="display: inline-block; background-color: #d9e0e7; padding: 6px; margin: 4px; border: 1px solid #8da1b4; border-radius: 5px; line-height: 60%"><p style="margin-bottom: 0px"/><p style="margin-bottom: 0px">Profile: <a href="StructureDefinition-rtlsMessageHeader.html">RTLS Message Header Resource Profile</a></p></div><p><b>event</b>: <a href="CodeSystem-rtlsMessageEvents.html#rtlsMessageEvents-staff-duress">RTLS Message Events staff-duress</a>: Staff Duress</p><blockquote><p><b>source</b></p></blockquote><p><b>focus</b>: <a href="Bundle-StaffDuressExample-MessageBundle.html#http-//example.org/fhir/Device/$auxiliary-function">Bundle: type = message; timestamp = 2023-03-24 10:24:13-0500</a></p></div>
        </text>
        <eventCoding>
          <system value="http://hl7.org/fhir/uv/rtls/CodeSystem/rtlsMessageEvents"/>
          <code value="staff-duress"/>
        </eventCoding>
        <source/>
        <focus>
          <reference value="http://example.org/fhir/Device/$auxiliary-function"/>
        </focus>
      </MessageHeader>
    </resource>
  </entry>
  <entry>
    <fullUrl value="http://example.org/fhir/Device/$auxiliary-function"/>
    <resource>
      <Bundle>
        <id value="http://example.org/fhir/Device/$auxiliary-function"/>
        <type value="subscription-notification"/>
        <timestamp value="2023-03-24T10:24:13.1882432-05:00"/>
        <entry>
          <fullUrl value="http://example.org/fhir/Device/$auxiliary-function"/>
          <resource>
            <Device>
              <id value="StaffDuressExample-Device"/>
              <identifier>
                <system value="http://rtls.org/trackingtags/id"/>
                <value value="12345678"/>
              </identifier>
              <status value="active"/>
              <location>
                <reference value="http://example.org/FHIR/R4/Location"/>
              </location>
            </Device>
          </resource>
        </entry>
        <entry>
          <fullUrl value="http://example.org/FHIR/R4/Location"/>
          <resource>
            <Location>
              <id value="StaffDuressExample-Location"/>
              <identifier>
                <system value="http://example.org/HospitalLocations/id"/>
                <value value="EMC-317"/>
              </identifier>
              <name value="Example Medical Center - Room 317"/>
            </Location>
          </resource>
        </entry>
      </Bundle>
    </resource>
  </entry>
</Bundle>