<?xml version="1.0" encoding="UTF-8"?>

<Bundle xmlns="http://hl7.org/fhir">
  <id value="LocationUpdateExample-MessageBundle"/>
  <meta>
    <profile value="http://hl7.org/fhir/uv/rtls/StructureDefinition/rtlsMessageBundleLocationUpdate"/>
  </meta>
  <type value="message"/>
  <timestamp value="2023-03-24T10:24:13.1882432-05:00"/>
  <entry>
    <fullUrl value="http://example.org/fhir/LocationUpdateExample-MessageHeader"/>
    <resource>
      <MessageHeader>
        <id value="LocationUpdateExample-MessageHeader"/>
        <meta>
          <profile value="http://hl7.org/fhir/uv/rtls/StructureDefinition/rtlsMessageLocationUpdateHeader"/>
        </meta>
        <text>
          <status value="generated"/><div xmlns="http://www.w3.org/1999/xhtml"><a name="MessageHeader_LocationUpdateExample-MessageHeader"> </a><p class="res-header-id"><b>Generated Narrative: MessageHeader LocationUpdateExample-MessageHeader</b></p><a name="LocationUpdateExample-MessageHeader"> </a><a name="hcLocationUpdateExample-MessageHeader"> </a><div style="display: inline-block; background-color: #d9e0e7; padding: 6px; margin: 4px; border: 1px solid #8da1b4; border-radius: 5px; line-height: 60%"><p style="margin-bottom: 0px"/><p style="margin-bottom: 0px">Profile: <a href="StructureDefinition-rtlsMessageLocationUpdateHeader.html">RTLS Message Location Update Header Header Resource Profile</a></p></div><p><b>event</b>: <a href="CodeSystem-rtlsMessageEvents.html#rtlsMessageEvents-location-update">RTLS Message Events location-update</a>: Location Update</p><h3>Sources</h3><table class="grid"><tr><td style="display: none">-</td><td><b>Endpoint</b></td></tr><tr><td style="display: none">*</td><td>urn:uuid:056df0be-13d1-43ae-9182-40155caf6695</td></tr></table><p><b>focus</b>: <a href="Bundle-LocationUpdateExample-MessageBundle.html#http-//example.org/fhir/LocationUpdateExample-Device">Bundle: type = message; timestamp = 2023-03-24 10:24:13-0500</a></p></div>
        </text>
        <eventCoding>
          <system value="http://hl7.org/fhir/uv/rtls/CodeSystem/rtlsMessageEvents"/>
          <code value="location-update"/>
        </eventCoding>
        <source>
          <endpoint value="urn:uuid:056df0be-13d1-43ae-9182-40155caf6695"/>
        </source>
        <focus>
          <reference value="http://example.org/fhir/LocationUpdateExample-Device"/>
        </focus>
      </MessageHeader>
    </resource>
  </entry>
  <entry>
    <fullUrl value="http://example.org/fhir/LocationUpdateExample-Device"/>
    <resource>
      <Device>
        <id value="LocationUpdateExample-Device"/>
        <meta>
          <profile value="http://hl7.org/fhir/uv/rtls/StructureDefinition/rtlsDevice"/>
        </meta>
        <text>
          <status value="generated"/><div xmlns="http://www.w3.org/1999/xhtml"><a name="Device_LocationUpdateExample-Device"> </a><p class="res-header-id"><b>Generated Narrative: Device LocationUpdateExample-Device</b></p><a name="LocationUpdateExample-Device"> </a><a name="hcLocationUpdateExample-Device"> </a><div style="display: inline-block; background-color: #d9e0e7; padding: 6px; margin: 4px; border: 1px solid #8da1b4; border-radius: 5px; line-height: 60%"><p style="margin-bottom: 0px"/><p style="margin-bottom: 0px">Profile: <a href="StructureDefinition-rtlsDevice.html">RTLS Tag Device Profile</a></p></div><p><b>identifier</b>: <code>http://example.org/ExampleMedicalCenter/rtlsTagIDs</code>/12345678</p><p><b>status</b>: Active</p><p><b>location</b>: <a href="Bundle-LocationUpdateExample-MessageBundle.html#http-//example.org/fhir/LocationUpdateExample-Location">Bundle: type = message; timestamp = 2023-03-24 10:24:13-0500</a></p></div>
        </text>
        <identifier>
          <system value="http://example.org/ExampleMedicalCenter/rtlsTagIDs"/>
          <value value="12345678"/>
        </identifier>
        <status value="active"/>
        <location>
          <reference value="http://example.org/fhir/LocationUpdateExample-Location"/>
        </location>
      </Device>
    </resource>
  </entry>
  <entry>
    <fullUrl value="http://example.org/fhir/LocationUpdateExample-Location"/>
    <resource>
      <Location>
        <id value="LocationUpdateExample-Location"/>
        <text>
          <status value="generated"/><div xmlns="http://www.w3.org/1999/xhtml"><a name="Location_LocationUpdateExample-Location"> </a><p class="res-header-id"><b>Generated Narrative: Location LocationUpdateExample-Location</b></p><a name="LocationUpdateExample-Location"> </a><a name="hcLocationUpdateExample-Location"> </a><p><b>identifier</b>: <code>http://example.org/HospitalLocations/id</code>/EMC-317</p><p><b>name</b>: Example Medical Center - Room 317</p></div>
        </text>
        <identifier>
          <system value="http://example.org/HospitalLocations/id"/>
          <value value="EMC-317"/>
        </identifier>
        <name value="Example Medical Center - Room 317"/>
      </Location>
    </resource>
  </entry>
</Bundle>