<?xml version="1.0" encoding="UTF-8"?>

<Bundle xmlns="http://hl7.org/fhir"> 
  <id value="LocationUpdateExample-MessageBundle"/>
  <meta>
    <profile value="http://hl7.org/fhir/uv/rtls/StructureDefinition/rtlsMessageBundleLocationUpdate"/>
  </meta>
  <type value="message"/>
  <timestamp value="2023-03-24T10:24:13.1882432-05:00"/>
  <entry>
    <fullUrl value="http://example.org/fhir/LocationUpdateExample-MessageHeader"/> 
    <resource> 
      <MessageHeader> 
        <id value="LocationUpdateExample-MessageHeader"/> 
        <meta>
          <profile value="http://hl7.org/fhir/uv/rtls/StructureDefinition/rtlsMessageLocationUpdateHeader"/>
        </meta>
        <eventCoding> 
          <system value="http://hl7.org/fhir/uv/rtls/CodeSystem/rtlsMessageEvents"/> 
          <code value="location-update"/> 
        </eventCoding> 
        <source> 
          <endpoint value="urn:uuid:056df0be-13d1-43ae-9182-40155caf6695"/>
        </source> 
        <focus> 
          <reference value="http://example.org/fhir/LocationUpdateExample-Device"/> 
        </focus> 
      </MessageHeader> 
    </resource> 
  </entry>
  <entry>
    <fullUrl value="http://example.org/fhir/LocationUpdateExample-Device"/> 
    <resource> 
      <Device> 
        <id value="LocationUpdateExample-Device"/> 
        <meta>
          <profile value="http://hl7.org/fhir/uv/rtls/StructureDefinition/rtlsDevice"/>
        </meta>
        <identifier> 
          <system value="http://example.org/ExampleMedicalCenter/rtlsTagIDs"/>  
          <value value="12345678"/> 
        </identifier>
        <status value="active"/>
        <location>
          <reference value="http://example.org/fhir/LocationUpdateExample-Location"/>
        </location>
      </Device> 
    </resource>
  </entry>
  <entry>
    <fullUrl value="http://example.org/fhir/LocationUpdateExample-Location"/>
    <resource> 
    <Location> 
      <id value="LocationUpdateExample-Location"/>
      <identifier> 
        <system value="http://example.org/HospitalLocations/id"/> 
        <value value="EMC-317"/> 
      </identifier>
      <name value="Example Medical Center - Room 317"/>
    </Location> 
   </resource>
  </entry>
</Bundle> 