<?xml version="1.0" encoding="UTF-8"?>

<Bundle xmlns="http://hl7.org/fhir"> 
  <id value="LocationUpdateExample-MessageBundle"/>
  <meta>
    <profile value="http://hl7.org/fhir/uv/rtls/StructureDefinition/rtlsMessageBundle"/>
  </meta>
  <type value="message"/>
  <timestamp value="2023-03-24T10:24:13.1882432-05:00"/>
  <entry>
    <fullUrl value="http://example.org/fhir/LocationUpdateExample-MessageHeader"/> 
    <resource> 
      <MessageHeader> 
        <id value="LocationUpdateExample-MessageHeader"/> 
        <meta>
          <profile value="http://hl7.org/fhir/uv/rtls/StructureDefinition/rtlsMessageHeader"/>
        </meta>
        <eventCoding> 
          <system value="http://hl7.org/fhir/uv/rtls/CodeSystem/rtlsMessageEvents"/> 
          <code value="location-update"/> 
        </eventCoding> 
        <source> 
          <endpoint value="urn:uuid:056df0be-13d1-43ae-9182-40155caf6695"/>
        </source> 
        <focus> 
          <reference value="http://example.org/fhir/LocationUpdateExample-MessageBundle2"/> 
        </focus> 
      </MessageHeader> 
    </resource> 
  </entry>
  <entry>
    <fullUrl value="http://example.org/fhir/LocationUpdateExample-MessageBundle2"/> 
    <resource> 
      <MessageHeader> 
        <id value="LocationUpdateExample-MessageHeader"/> 
        <meta>
          <profile value="http://hl7.org/fhir/uv/rtls/StructureDefinition/rtlsMessageBundle"/>
        </meta>
        <type value="message"/>
        <timestamp value="2023-03-24T10:24:13.1882432-05:00"/>
        <entry>
          <fullUrl value="http://example.org/fhir/LocationUpdateExample-Device"/>
          <resource> 
            <Device xmlns="http://hl7.org/fhir"> 
              <id value="LocationUpdateExample-Device"/>
              <identifier> 
                <system value="urn:uuid:324de6ab-268e-4da0-b06c-722f57d91bb0"/> 
                <value value="12345678"/> 
              </identifier>
              <status value="active"/>
              <location>
                <reference value="http://example.org/FHIR/R4/Location"/>
              </location>
            </Device> 
          </resource>
        </entry>
         <entry>
          <fullUrl value="http://example.org/FHIR/R4/Location"/>
          <resource> 
            <Location xmlns="http://hl7.org/fhir"> 
              <id value="LocationUpdateExample-Location"/>
              <identifier> 
                <system value="http://example.org/HospitalLocations/id"/> 
                <value value="EMC-317"/> 
              </identifier>
              <name value="Example Medical Center - Room 317"/>
            </Location> 
          </resource>
        </entry>
      </MessageHeader> 
    </resource>
  </entry>
</Bundle> 