{"resourceType":"Bundle","id":"StaffDuressExample-MessageBundle","meta":{"profile":["http://hl7.org/fhir/uv/rtls/StructureDefinition/rtlsMessageBundle"]},"type":"message","timestamp":"2023-03-24T10:24:13.1882432-05:00","entry":[{"fullUrl":"http://example.org/fhir/Device/$auxiliary-function","resource":{"resourceType":"MessageHeader","id":"StaffDuressExample-MessageHeader","meta":{"profile":["http://hl7.org/fhir/uv/rtls/StructureDefinition/rtlsMessageHeader"]},"text":{"status":"generated","div":"<div xmlns=\"http://www.w3.org/1999/xhtml\"><a name=\"MessageHeader_StaffDuressExample-MessageHeader\"> </a><p class=\"res-header-id\"><b>Generated Narrative: MessageHeader StaffDuressExample-MessageHeader</b></p><a name=\"StaffDuressExample-MessageHeader\"> </a><a name=\"hcStaffDuressExample-MessageHeader\"> </a><div style=\"display: inline-block; background-color: #d9e0e7; padding: 6px; margin: 4px; border: 1px solid #8da1b4; border-radius: 5px; line-height: 60%\"><p style=\"margin-bottom: 0px\"/><p style=\"margin-bottom: 0px\">Profile: <a href=\"StructureDefinition-rtlsMessageHeader.html\">RTLS Message Header Resource Profile</a></p></div><p><b>event</b>: <a href=\"CodeSystem-rtlsMessageEvents.html#rtlsMessageEvents-staff-duress\">RTLS Message Events staff-duress</a>: Staff Duress</p><h3>Sources</h3><table class=\"grid\"><tr><td style=\"display: none\">-</td><td><b>Endpoint</b></td></tr><tr><td style=\"display: none\">*</td><td>urn:uuid:056df0be-13d1-43ae-9182-40155caf6695</td></tr></table><p><b>focus</b>: <a href=\"Bundle-StaffDuressExample-MessageBundle.html#http-//example.org/fhir/Device/$auxiliary-function\">Bundle: type = message; timestamp = 2023-03-24 10:24:13-0500</a></p></div>"},"eventCoding":{"system":"http://hl7.org/fhir/uv/rtls/CodeSystem/rtlsMessageEvents","code":"staff-duress"},"source":{"endpoint":"urn:uuid:056df0be-13d1-43ae-9182-40155caf6695"},"focus":[{"reference":"http://example.org/fhir/Device/$auxiliary-function"}]}},{"fullUrl":"http://example.org/fhir/Device/$auxiliary-function","resource":{"resourceType":"Bundle","id":"http://example.org/fhir/Device/$auxiliary-function","type":"message","timestamp":"2023-03-24T10:24:13.1882432-05:00","entry":[{"fullUrl":"http://example.org/fhir/Device/$auxiliary-function","resource":{"resourceType":"Device","id":"StaffDuressExample-Device","identifier":[{"system":"urn:uuid:e1fd96a2-772f-46a7-a123-88d03c9c907a","value":"12345678"}],"status":"active","location":{"reference":"http://example.org/FHIR/R4/Location"}}},{"fullUrl":"http://example.org/FHIR/R4/Location","resource":{"resourceType":"Location","id":"StaffDuressExample-Location","identifier":[{"system":"http://example.org/HospitalLocations/id","value":"EMC-317"}],"name":"Example Medical Center - Room 317"}}]}}]}